Packet number,Gyroscope X (deg/s),Gyroscope Y (deg/s),Gyroscope Z (deg/s),Accelerometer X (g),Accelerometer Y (g),Accelerometer Z (g),Magnetometer X (G),Magnetometer Y (G),Magnetometer Z (G)
1,1.122925,0.032959,-0.812744,-0.05886,0.024921,0.127214,0,0,0
2,1.17334,0.044678,-0.807007,-0.250869,0.232831,0.167325,0,0,0
3,1.251221,0.047363,-0.768433,-0.425551,0.253479,0.17136,0,0,0
4,1.389648,-0.029419,-0.703247,-0.536864,-0.008544,0.171597,0,0,0
5,1.484009,-0.020386,-0.607178,-0.586943,0.214556,0.068117,0,0,0
6,1.598877,0.053711,-0.53418,-0.556088,0.446674,-0.090901,0,0,0
7,1.695679,0.015137,-0.473877,-0.495567,0.657195,-0.27128,0,0,0
8,1.692261,-0.016235,-0.475098,-0.356248,0.853713,-0.519538,0,0,0
9,1.630737,-0.099121,-0.49231,-0.147626,1.17341,-0.715581,0,0,0
10,1.577759,-0.156372,-0.572632,0.106091,1.372776,-0.775628,0,0,0
11,1.556519,-0.161743,-0.61145,0.369064,1.300387,-0.75759,0,0,0
12,1.545044,-0.105225,-0.694824,0.576974,1.35545,-0.713445,0,0,0
13,1.548828,-0.040405,-0.757813,0.655297,1.532032,-0.67191,0,0,0
14,1.569336,-0.004517,-0.777222,0.561547,1.569294,-0.675233,0,0,0
15,1.587158,0.030396,-0.758789,0.350552,1.360197,-0.745011,0,0,0
16,1.59668,0.048828,-0.730591,0.12935,0.894773,-0.881719,0,0,0
17,1.595459,0.058716,-0.686279,-0.07856,0.529269,-1.063285,0,0,0
18,1.565796,0.037598,-0.623047,-0.283622,0.532354,-1.245324,0,0,0
19,1.544312,-0.012695,-0.538696,-0.465662,0.722938,-1.380134,0,0,0
20,1.50293,-0.064697,-0.464722,-0.566769,0.818824,-1.487174,0,0,0
21,1.461304,-0.098511,-0.445679,-0.574126,0.658145,-1.561224,0,0,0
22,1.421021,-0.105469,-0.441895,-0.54612,0.588841,-1.590655,0,0,0
23,1.375732,-0.081665,-0.481323,-0.511468,0.602607,-1.614389,0,0,0
24,1.325562,-0.052979,-0.533203,-0.496991,0.662179,-1.689388,0,0,0
25,1.252686,-0.038086,-0.572632,-0.543035,0.722227,-1.815891,0,0,0
26,1.153564,-0.048462,-0.606567,-0.636072,0.721277,-1.967551,0,0,0
27,1.045654,-0.062988,-0.616333,-0.760201,0.656721,-2.105446,0,0,0
28,0.941284,-0.075195,-0.612061,-0.890501,0.552054,-2.194211,0,0,0
29,0.8479,-0.094849,-0.619507,-1.00656,0.463526,-2.208689,0,0,0
30,0.778442,-0.100586,-0.598511,-1.106243,0.414871,-2.159322,0,0,0
31,0.726563,-0.089111,-0.581909,-1.177445,0.385915,-2.071269,0,0,0
32,0.669556,-0.077026,-0.558105,-1.225863,0.358384,-1.992946,0,0,0
33,0.602417,-0.062378,-0.549927,-1.249122,0.271992,-1.950225,0,0,0
34,0.524536,-0.054565,-0.532227,-1.267872,0.176819,-1.898722,0,0,0
35,0.427734,-0.056396,-0.516602,-1.287334,0.099446,-1.811381,0,0,0
36,0.335327,-0.045044,-0.525391,-1.321511,0.076898,-1.714546,0,0,0
37,0.237915,-0.035645,-0.528931,-1.361147,0.062183,-1.583534,0,0,0
38,0.186523,-0.022705,-0.515137,-1.398646,0.023971,-1.382982,0,0,0
39,0.163696,0.014404,-0.505371,-1.429501,-0.093275,-1.157746,0,0,0
40,0.145996,0.054443,-0.51123,-1.463915,-0.251581,-0.946276,0,0,0
41,0.122925,0.086426,-0.514648,-1.522538,-0.43101,-0.765185,0,0,0
42,0.121582,0.120361,-0.493286,-1.615338,-0.59786,-0.591215,0,0,0
43,0.139038,0.154663,-0.447021,-1.737806,-0.716293,-0.424839,0,0,0
44,0.12439,0.159302,-0.373413,-1.876887,-0.726973,-0.279587,0,0,0
45,0.083496,0.145508,-0.31897,-1.982029,-0.775391,-0.157594,0,0,0
46,0.045288,0.144775,-0.266357,-2.038753,-0.906403,-0.008544,0,0,0
47,0.040161,0.163696,-0.205811,-2.07744,-1.069218,0.193195,0,0,0
48,0.086426,0.204102,-0.123779,-2.087408,-1.288283,0.406564,0,0,0
49,0.138184,0.221191,-0.043091,-2.07744,-1.440655,0.597148,0,0,0
50,0.148193,0.227661,0.017334,-2.062724,-1.433773,0.773967,0,0,0
51,0.103394,0.20813,0.05188,-2.047535,-1.316289,0.974045,0,0,0
52,0.118042,0.18689,0.104248,-2.03638,-1.208299,1.225863,0,0,0
53,0.168213,0.171509,0.152954,-2.007899,-1.173885,1.502601,0,0,0
54,0.217896,0.158081,0.217773,-1.978231,-1.126892,1.76866,0,0,0
55,0.252441,0.118164,0.286987,-1.949276,-1.031718,2.032345,0,0,0
56,0.301025,0.083252,0.349243,-1.891602,-0.943665,2.300065,0,0,0
57,0.402344,0.080322,0.429077,-1.791919,-0.922542,2.577516,0,0,0
58,0.53186,0.08252,0.513794,-1.653075,-0.909251,2.820077,0,0,0
59,0.612061,0.064941,0.570435,-1.465814,-0.841846,2.959159,0,0,0
60,0.692261,0.0625,0.587769,-1.226812,-0.745486,3.022054,0,0,0
61,0.785156,0.048706,0.597656,-0.979029,-0.668825,3.069759,0,0,0
62,0.90625,0.028442,0.594482,-0.752369,-0.625629,3.112243,0,0,0
63,1.032471,-0.006104,0.59436,-0.548968,-0.550629,3.128382,0,0,0
64,1.131836,-0.042603,0.588867,-0.362181,-0.465662,3.098003,0,0,0
65,1.199707,-0.057861,0.56665,-0.196043,-0.486548,3.010662,0,0,0
66,1.2229,-0.100342,0.531006,-0.067405,-0.529032,2.849745,0,0,0
67,1.260132,-0.153931,0.514282,0.016139,-0.654347,2.70378,0,0,0
68,1.34668,-0.212158,0.530151,0.088291,-0.848017,2.579652,0,0,0
69,1.455078,-0.252441,0.56665,0.217404,-1.127604,2.454336,0,0,0
70,1.565552,-0.296265,0.55957,0.436943,-1.306321,2.311694,0,0,0
71,1.667114,-0.310547,0.479126,0.717717,-1.317001,2.153389,0,0,0
72,1.723511,-0.297363,0.361816,0.960991,-1.178395,2.043737,0,0,0
73,1.739624,-0.348877,0.217651,1.058063,-0.834963,2.041364,0,0,0
74,1.763916,-0.375977,0.106323,1.001339,-0.329666,2.08005,0,0,0
75,1.831177,-0.343994,0.036011,0.959329,-0.246597,2.029259,0,0,0
76,1.932861,-0.345581,-0.03064,0.977367,-0.220964,1.807584,0,0,0
77,2.061401,-0.35376,-0.065186,1.050231,-0.196992,1.410513,0,0,0
78,2.127197,-0.334473,-0.134033,1.170562,-0.342007,0.934171,0,0,0
79,2.129517,-0.324463,-0.197754,1.307508,-0.495567,0.495567,0,0,0
80,2.081055,-0.310425,-0.199341,1.418108,-0.49082,0.11867,0,0,0
81,1.983643,-0.341553,-0.186401,1.500228,-0.333463,-0.222863,0,0,0
82,1.848511,-0.39978,-0.210449,1.576651,-0.153797,-0.535677,0,0,0
83,1.758667,-0.444336,-0.255127,1.669214,-0.023497,-0.786308,0,0,0
84,1.692261,-0.478394,-0.339111,1.804261,-0.020174,-0.93963,0,0,0
85,1.612427,-0.502441,-0.440796,1.967076,-0.0928,-0.957193,0,0,0
86,1.5802,-0.486816,-0.525879,2.100224,-0.136233,-0.880295,0,0,0
87,1.601685,-0.450439,-0.599731,2.183293,-0.104667,-0.795565,0,0,0
88,1.664063,-0.397827,-0.668457,2.254021,-0.061234,-0.7424,0,0,0
89,1.715698,-0.338257,-0.762329,2.296504,0.038686,-0.737891,0,0,0
90,1.739014,-0.272949,-0.868652,2.265176,0.079509,-0.816925,0,0,0
91,1.719971,-0.21106,-0.939087,2.138199,0.138132,-0.961465,0,0,0
92,1.648804,-0.189087,-0.969727,1.917235,0.215742,-1.156797,0,0,0
93,1.563354,-0.194946,-0.956665,1.648091,0.266058,-1.379422,0,0,0
94,1.48291,-0.212769,-0.894043,1.348805,0.368352,-1.63836,0,0,0
95,1.40625,-0.237793,-0.848633,1.108854,0.424839,-1.881159,0,0,0
96,1.33667,-0.275879,-0.815918,0.961228,0.47563,-2.011696,0,0,0
97,1.265015,-0.292236,-0.811279,0.86914,0.614237,-2.001253,0,0,0
98,1.206177,-0.279663,-0.830078,0.782511,0.771593,-1.87926,0,0,0
99,1.168823,-0.253174,-0.846313,0.664078,0.951735,-1.726413,0,0,0
100,1.143433,-0.222412,-0.841553,0.52737,1.051655,-1.620085,0,0,0
101,1.119019,-0.193604,-0.822388,0.407988,1.038126,-1.579025,0,0,0
102,1.073608,-0.183228,-0.79187,0.315425,0.934409,-1.60181,0,0,0
103,1.018921,-0.162964,-0.756592,0.21598,0.774916,-1.650464,0,0,0
104,0.970459,-0.141846,-0.728882,0.089477,0.70941,-1.677046,0,0,0
105,0.938477,-0.120728,-0.684204,-0.06242,0.784647,-1.65711,0,0,0
106,0.919067,-0.114136,-0.645752,-0.207198,0.882668,-1.584721,0,0,0
107,0.910278,-0.100952,-0.605469,-0.332039,0.933222,-1.481003,0,0,0
108,0.878174,-0.087158,-0.566895,-0.44169,0.982351,-1.374912,0,0,0
109,0.838257,-0.075195,-0.518311,-0.545171,1.025547,-1.305372,0,0,0
110,0.784668,-0.059448,-0.469727,-0.629901,0.997067,-1.264074,0,0,0
111,0.728394,-0.031006,-0.41626,-0.693983,0.911624,-1.251258,0,0,0
112,0.690674,-0.008301,-0.355225,-0.755454,0.833539,-1.227287,0,0,0
113,0.650391,0.006958,-0.287964,-0.821672,0.767321,-1.171986,0,0,0
114,0.624023,0.016724,-0.204712,-0.891687,0.712733,-1.069693,0,0,0
115,0.612793,0.027832,-0.127563,-0.949361,0.710834,-0.907589,0,0,0
116,0.596191,0.043823,-0.069214,-0.956007,0.716768,-0.729109,0,0,0
117,0.599609,0.069214,-0.039185,-0.886703,0.628714,-0.580772,0,0,0
118,0.629272,0.10437,-0.009766,-0.777764,0.484886,-0.459491,0,0,0
119,0.667847,0.130981,0.013306,-0.690186,0.403004,-0.345567,0,0,0
120,0.692505,0.152832,0.029663,-0.649838,0.395646,-0.236628,0,0,0
121,0.718872,0.174927,0.038574,-0.637733,0.386153,-0.156882,0,0,0
122,0.760132,0.195923,0.03894,-0.644142,0.384254,-0.114635,0,0,0
123,0.797119,0.210571,0.049438,-0.645803,0.341295,-0.099683,0,0,0
124,0.82959,0.211426,0.080933,-0.637259,0.245647,-0.102531,0,0,0
125,0.852173,0.206299,0.099365,-0.635597,0.178717,-0.108939,0,0,0
126,0.866333,0.223633,0.133057,-0.644142,0.153084,-0.109651,0,0,0
127,0.870972,0.214355,0.155029,-0.642243,0.194144,-0.100395,0,0,0
128,0.863281,0.212524,0.164307,-0.641531,0.262024,-0.068591,0,0,0
129,0.858521,0.214355,0.186768,-0.624917,0.28552,-0.042484,0,0,0
130,0.858887,0.203979,0.195923,-0.576262,0.218353,-0.039161,0,0,0
131,0.869385,0.200684,0.20105,-0.503873,0.026107,-0.061946,0,0,0
132,0.895264,0.199341,0.198486,-0.435757,-0.19628,-0.093512,0,0,0
133,0.912842,0.194702,0.210083,-0.394697,-0.248733,-0.10799,0,0,0
134,0.920166,0.204102,0.22876,-0.370726,-0.202214,-0.101819,0,0,0
135,0.905029,0.202026,0.213745,-0.351264,-0.164952,-0.087104,0,0,0
136,0.899902,0.196899,0.214111,-0.346754,-0.086155,-0.070015,0,0,0
137,0.905029,0.190674,0.222534,-0.336549,-0.000712,-0.02943,0,0,0
138,0.921021,0.195557,0.228394,-0.290742,0.006646,0.002611,0,0,0
139,0.939941,0.204712,0.22644,-0.225473,-0.039398,-0.000949,0,0,0
140,0.942993,0.21582,0.211304,-0.162815,-0.078322,-0.014715,0,0,0
141,0.944702,0.224731,0.198364,-0.123417,-0.073338,-0.014952,0,0,0
142,0.939209,0.2323,0.171875,-0.093037,-0.069778,-0.009019,0,0,0
143,0.949707,0.236084,0.165527,-0.060284,-0.113686,-0.008782,0,0,0
144,0.977417,0.239136,0.142822,-0.043671,-0.168037,-0.008307,0,0,0
145,1.006714,0.246704,0.122559,-0.056487,-0.12579,0.011867,0,0,0
146,1.033936,0.251709,0.116333,-0.071677,-0.059098,0.029668,0,0,0
147,1.041382,0.249512,0.111206,-0.069066,-0.027294,0.016376,0,0,0
148,1.041382,0.245361,0.1073,-0.052452,-0.042009,-0.020649,0,0,0
149,1.038818,0.243042,0.100952,-0.034177,-0.075474,-0.052215,0,0,0
150,1.030396,0.243774,0.087524,-0.013291,-0.116771,-0.079509,0,0,0